acc_x, acc_y, angular_z, stamp, 
-0.016537249088287354, -0.02658313512802124, -1.3562462496786248e-10, 1791403235609043825, 
0.0036026835441589355, 0.01637709140777588, -4.0813386618129505e-10, 1791403235645541053, 
-0.016138017177581787, -0.009376823902130127, -9.364475307984238e-11, 1791403235705609614, 
0.016199052333831787, 0.01928490400314331, -7.677215926742163e-13, 1791403235735784618, 
0.003537416458129883, -0.011678457260131836, 1.5009531588025089e-10, 1791403235825662156, 
0.0013825297355651855, -0.006412029266357422, 1.2594509580313182e-10, 1791403235855759854, 
-0.01497030258178711, 0.011583685874938965, 1.1701143716784843e-10, 1791403235885765337, 
-0.0025457143783569336, 0.02048557996749878, 7.776240045771905e-11, 1791403235915907112, 
0.0009171962738037109, 0.014758646488189697, 8.418349304344149e-11, 1791403235945952111, 
0.004339158535003662, -2.205371856689453e-05, 7.013175685138695e-11, 1791403235976604965, 
0.01667541265487671, -0.0038648247718811035, 9.217905436393248e-12, 1791403236009211289, 
0.009116947650909424, -0.009363234043121338, -1.337539930054396e-10, 1791403236046301102, 
0.007073462009429932, 0.011940836906433105, -2.4887065755212403e-10, 1791403236076078597, 
-0.0074806809425354, -0.004508554935455322, -3.3119648727163024e-10, 1791403236106169968, 
0.004833996295928955, -0.019047796726226807, -4.225761278308387e-10, 1791403236137095630, 
-0.0204240083694458, -0.0027173757553100586, -6.135891216135928e-10, 1791403236168970054, 
-0.011520445346832275, 0.022240281105041504, -5.882230141465875e-10, 1791403236196597892, 
0.008384406566619873, -0.0031531453132629395, -4.5294078958939085e-10, 1791403236226404883, 
0.011978328227996826, -0.026540756225585938, -9.933603340638023e-07, 1791403236256419878, 
-0.006171524524688721, -0.029938876628875732, -4.66183652358929e-10, 1791403236286595424, 
-0.011620581150054932, 0.008149683475494385, -3.929237393090691e-10, 1791403236316646496, 
-0.020533382892608643, 0.033229708671569824, -2.803184927700234e-10, 1791403236346551459, 
0.019163131713867188, -0.013393640518188477, -2.281393295202368e-10, 1791403236376931184, 
-0.0257682204246521, -0.034867167472839355, -2.0916417206442763e-10, 1791403236408695103, 
-0.023810386657714844, 0.008414924144744873, -2.1725913152797383e-10, 1791403236436726084, 
0.010560214519500732, 0.02642500400543213, -7.105312088802865e-11, 1791403236466753863, 
-0.01082676649093628, -0.038358330726623535, -3.37685857084418e-11, 1791403236496820103, 
0.025312423706054688, -0.02723008394241333, 8.06301136748046e-12, 1791403236525804045, 
0.00021517276763916016, 0.0162428617477417, 4.9149611670208496e-12, 1791403236556884035, 
0.0021303296089172363, 0.041428327560424805, 1.4891864025082967e-12, 1791403236586915570, 
0.016547739505767822, -0.01087123155593872, 2.0171481343392194e-11, 1791403236616024583, 
0.0037403106689453125, 0.005318701267242432, 6.127535509685515e-12, 1791403236648326669, 
-0.012641668319702148, -0.008980751037597656, -1.7612836737366473e-11, 1791403236679935752, 
0.014192044734954834, 0.046874165534973145, -1.7008807316428706e-11, 1791403236707215911, 
-0.0076351165771484375, 0.014251649379730225, -1.3616789580154055e-11, 1791403236737190836, 
0.0334017276763916, -0.02166682481765747, 9.928286610349949e-07, 1791403236767207480, 
0.004339694976806641, -0.02327650785446167, -6.407939360000092e-11, 1791403236797280643, 
-0.021007537841796875, -0.021215379238128662, -2.3273743587129303e-11, 1791403236827319472, 
0.009622931480407715, 0.032776594161987305, 9.269010391785845e-11, 1791403236857421932, 
0.011462926864624023, -0.008651554584503174, 6.289318056458169e-11, 1791403236888684873, 
-0.010209143161773682, -0.013824284076690674, 7.539102536397656e-11, 1791403236920690477, 
-0.0031315088272094727, 0.007945775985717773, 1.157585734913235e-10, 1791403236947570087, 
-0.0066474080085754395, 0.01708853244781494, 9.938790829129896e-07, 1791403236977560533, 
0.022053301334381104, -0.020687222480773926, 1.7022663817698783e-10, 1791403237007580109, 
0.0038810372352600098, -0.01702183485031128, 1.619046022786577e-10, 1791403237037646357, 
-0.007178306579589844, -0.022187650203704834, 2.780126552509444e-10, 1791403237067682229, 
-0.03419053554534912, -0.011099636554718018, 3.9081447678105655e-10, 1791403237097767656, 
-0.0054073333740234375, -0.0018693208694458008, 4.147997178586949e-10, 1791403237129191363, 
0.030429065227508545, -0.012425124645233154, 9.254538961689287e-07, 1791403237161410085, 
-0.0055997371673583984, -0.008386015892028809, 6.937910194327176e-10, 1791403237187950020, 
-0.021762490272521973, -0.006116211414337158, 7.300134276885197e-10, 1791403237217947749, 
0.04481160640716553, 0.03730571269989014, 7.510561306655191e-10, 1791403237247993568, 
-0.0019055604934692383, -0.01125955581665039, 7.124067305974641e-10, 1791403237278075914, 
0.005219817161560059, -0.003952682018280029, 6.841538930773955e-10, 1791403237308093062, 
-0.0037574172019958496, -0.032553791999816895, 9.914059403230852e-07, 1791403237338174795, 
-0.014336109161376953, 0.019760549068450928, 1.0051471625246064e-06, 1791403237367841245, 
0.002020597457885742, 0.023187637329101562, 9.061044547905555e-07, 1791403237400745352, 
0.0092010498046875, -0.005637824535369873, 3.4778779533987305e-10, 1791403237428351956, 
0.025320589542388916, -0.011062800884246826, 3.4927882805873156e-10, 1791403237458457431, 
-0.03030461072921753, 0.024970650672912598, 3.020466683297654e-10, 1791403237488372012, 
-0.012099206447601318, 0.024694204330444336, 1.892383260202384e-10, 1791403237518473230, 
-0.010000824928283691, 0.00838690996170044, 6.066580822817668e-11, 1791403237548488243, 
0.0008284449577331543, -0.022332727909088135, -4.6953644742831804e-11, 1791403237578564025, 
-0.020570576190948486, 0.002715766429901123, 1.8556488774127943e-11, 1791403237609428539, 
0.013651907444000244, 0.025677263736724854, -5.0270703040762566e-11, 1791403237640752701, 
0.020816326141357422, -0.00715184211730957, -2.748826402884796e-11, 1791403237667838890, 
0.00260770320892334, -0.020209670066833496, 2.3091060079664458e-12, 1791403237697832428, 
-0.02065354585647583, 0.003528773784637451, -1.7342768955675954e-11, 1791403237728994047, 
0.06165081262588501, 0.03202104568481445, -0.00013511547805172605, 1791403237758994517, 
2.215059280395508, 0.007203817367553711, -0.0010300595167185725, 1791403237788967032, 
0.7525970935821533, -0.04221862554550171, -0.019853441975975765, 1791403237819217510, 
1.0085135698318481, 0.08874714374542236, -0.018838277639725724, 1791403237848064073, 
-0.020386576652526855, 0.15681612491607666, -0.01586223663204135, 1791403237878776464, 
-0.7547460198402405, -0.3917028307914734, -0.03978586248962003, 1791403237911078720, 
0.253354012966156, 0.03981125354766846, -0.05937954516598391, 1791403237939123229, 
1.0766934156417847, 0.0774761438369751, 0.02424637817083209, 1791403237969156586, 
-0.201421856880188, -0.20028233528137207, 0.0036456931574747726, 1791403237999321106, 
-0.12723290920257568, -0.5855387449264526, -0.006434999138104976, 1791403238029231700, 
0.25012457370758057, 0.03777045011520386, 0.033968878566146485, 1791403238059301235, 
0.09670579433441162, 0.46208804845809937, -0.01280638698832854, 1791403238089361354, 
0.24758875370025635, -0.327780544757843, -0.04276638378210436, 1791403238121213186, 
0.012785911560058594, -0.5107552409172058, -0.022980995224323963, 1791403238152455375, 
0.10954922437667847, 0.39237701892852783, -0.0059777587551823564, 1791403238179553846, 
-0.3380628824234009, 0.43380022048950195, -0.034372982368015975, 1791403238209559356, 
0.12454891204833984, -0.23063892126083374, -0.028095041798338223, 1791403238232828834, 
-0.0780559778213501, -0.30192112922668457, 0.03183674613527164, 1791403238269643110, 
0.39141225814819336, 0.4975472092628479, 0.04880199371164951, 1791403238299726854, 
0.1739586591720581, 0.2673090100288391, -0.017667232993690128, 1791403238329864566, 
0.14098519086837769, -0.5784563422203064, -0.017149268569860064, 1791403238360949621, 
-0.2491644024848938, -0.014378070831298828, 0.02650615936270623, 1791403238393329536, 
-0.0803074836730957, 0.4989853501319885, 0.039341478207285736, 1791403238420410226, 
0.07593584060668945, -0.18083298206329346, -0.013508956305098626, 1791403238450432442, 
0.02952200174331665, -0.4616636037826538, -0.011770196852788678, 1791403238480415221, 
0.25257575511932373, 0.30008381605148315, 0.03863236841737323, 1791403238510462982, 
0.09447497129440308, 0.1773499846458435, 0.016734605423537417, 1791403238540461883, 
-0.1441381573677063, -0.26080983877182007, -0.04217086630994387, 1791403238570178024, 
0.025189697742462158, -0.27090442180633545, -0.01197621534364907, 1791403238600928781, 
-0.003288865089416504, 0.35150593519210815, 0.04260369043214609, 1791403238633297927, 
0.09964287281036377, 0.16764622926712036, 0.003824408157288337, 1791403238660367702, 
-0.37578731775283813, -0.4585545063018799, -0.03154311364902183, 1791403238690329904, 
0.32745641469955444, -0.053561389446258545, 0.006927619980408051, 1791403238720385553, 
-0.2600972056388855, 0.5233575701713562, 0.025373349529268497, 1791403238750446761, 
0.019123315811157227, -0.018241941928863525, -0.02976760017150618, 1791403238780498692, 
-0.3042386770248413, -0.5856045484542847, -0.019807553960735243, 1791403238810566494, 
0.14116603136062622, 0.13588672876358032, 0.03439160323938132, 1791403238841080425, 
0.15108662843704224, 0.540310800075531, 0.013966627881877192, 1791403238872884966, 
0.06170886754989624, -0.16367214918136597, -0.038212568247923795, 1791403238900725682, 
-0.11465698480606079, -0.5332502722740173, -0.004327540987016982, 1791403238930734507, 
-0.12503623962402344, 0.29479366540908813, 0.0422370044371379, 1791403238960747516, 
0.13099932670593262, 0.418409526348114, -0.00235160283844535, 1791403238990833419, 
0.017693519592285156, -0.4142441749572754, -0.039300379074881764, 1791403239020848720, 
-0.07428568601608276, -0.3527560830116272, 0.013889452844566504, 1791403239050915980, 
-0.030059337615966797, 0.4901408553123474, 0.05538819132630452, 1791403239081184765, 
0.16741377115249634, 0.3488684296607971, -0.013107117210964468, 1791403239112971306, 
-0.12172126770019531, -0.5695105791091919, -0.04829280712719421, 1791403239142580016, 
0.029331862926483154, -0.3074544072151184, 0.018566139714543316, 1791403239170190963, 
0.07212209701538086, 0.6419848203659058, 0.0245649895255295, 1791403239201224550, 
-0.06535255908966064, 0.30336833000183105, -0.020700606802842084, 1791403239231265827, 
0.11025041341781616, -0.6532143950462341, -0.019496328026363963, 1791403239261296686, 
-0.08956998586654663, -0.19424021244049072, 0.012650461288315472, 1791403239291383842, 
0.06365126371383667, 0.6372711062431335, -0.0012977917431300245, 1791403239321512469, 
-0.09442734718322754, -0.4294753074645996, -0.027891457484162357, 1791403239352951188, 
0.05683547258377075, -0.3966861367225647, 0.00597107401490866, 1791403239383933206, 
0.19334357976913452, 0.5481506586074829, 0.03944278405880401, 1791403239411616306, 
-0.1673787236213684, 0.37006014585494995, -0.008753759585421435, 1791403239441578884, 
0.14678430557250977, -0.315229594707489, -0.03168694161214109, 1791403239464409941, 
-0.17642802000045776, -0.4478607773780823, -0.0015783086409494498, 1791403239491679943, 
0.19086343050003052, 0.609375, 0.03851144267409383, 1791403239521673815, 
-0.10681259632110596, 0.36731261014938354, -0.02342820742157938, 1791403239551741766, 
-0.03297770023345947, -0.7479223012924194, -0.057832562463895086, 1791403239581762208, 
-0.016228556632995605, -0.20149701833724976, 0.013666468844597723, 1791403239611908223, 
0.08231008052825928, 0.6720786094665527, 0.04739840458784193, 1791403239641908523, 
0.003332972526550293, 0.10633933544158936, -0.026019107210357162, 1791403239673003845, 
-0.18702536821365356, -0.6958974003791809, -0.031881678204799264, 1791403239705345861, 
0.22070038318634033, 0.0018559694290161133, 0.034598829822841126, 1791403239732140344, 
-0.07548743486404419, 0.6880102753639221, 0.028778195392218864, 1791403239762141321, 
0.04741168022155762, -0.12824851274490356, -0.03560968274027313, 1791403239792168549, 
-0.22123229503631592, -0.5882973074913025, -0.04670977074225366, 1791403239822193945, 
0.04360473155975342, 0.25844037532806396, 0.01792468383193163, 1791403239852268255, 
-0.05399602651596069, 0.5153873562812805, 0.01690543376050878, 1791403239882332541, 
0.12677329778671265, -0.3025474548339844, -0.03355449477356633, 1791403239913714081, 
-0.09938913583755493, -0.5031566619873047, 0.007753664232149443, 1791403239944896207, 
0.009940624237060547, 0.44713449478149414, 0.05555577229814464, 1791403239972558716, 
-0.1806216835975647, 0.3418666124343872, 0.004719658527859589, 1791403240002490678, 
-0.023559987545013428, -0.3929353952407837, -0.04408179807187987, 1791403240032508066, 
0.08302980661392212, -0.38067513704299927, -0.0014587270765092353, 1791403240062588153, 
0.1162521243095398, 0.45103710889816284, 0.040711175010456506, 1791403240092657500, 
-0.2226952314376831, 0.3222823143005371, -0.011182790607871503, 1791403240122648376, 
-0.1296737790107727, -0.4887588620185852, -0.04238485063672635, 1791403240152990205, 
-0.07051682472229004, -0.2839099168777466, 0.008369441722639617, 1791403240185215507, 
0.01159656047821045, 0.5348272323608398, 0.030190395361870417, 1791403240214882659, 
0.01784449815750122, 0.16102313995361328, -0.027540984544322966, 1791403240242899543, 
-0.17805832624435425, -0.5866950750350952, -0.023728894991700566, 1791403240272965325, 
0.14896005392074585, -0.003645479679107666, 0.03318300772275448, 1791403240302970163, 
0.09058326482772827, 0.5405335426330566, 0.016526483951122807, 1791403240333037530, 
0.18145406246185303, -0.08781903982162476, -0.04368890066836873, 1791403240363125402, 
-0.3099161386489868, -0.5180220007896423, -0.030131158804721517, 1791403240392187918, 
-0.06144231557846069, 0.2896729111671448, 0.02153285239216074, 1791403240424373734, 
0.03561604022979736, 0.427922785282135, 0.01845252372042173, 1791403240456047099, 
0.0023764967918395996, -0.4169236421585083, -0.017153214358610013, 1791403240483322263, 
-0.08770883083343506, -0.3807615637779236, 0.013386247798276085, 1791403240513358058, 
0.09749680757522583, 0.6036580204963684, 0.03073947704465563, 1791403240543354701, 
0.06686282157897949, 0.20942944288253784, -0.022475371914489114, 1791403240573457690, 
-0.05306077003479004, -0.60117107629776, -0.02340622391179318, 1791403240603476998, 
-0.06438571214675903, -0.0951966643333435, 0.01987116571918808, 1791403240633561774, 
0.06915020942687988, 0.5811474323272705, 0.021911755044034597, 1791403240664939255, 
-0.153506338596344, -0.018658697605133057, -0.02331360195517833, 1791403240697097809, 
-0.01757735013961792, -0.6359049081802368, -0.020409924762949942, 1791403240723736214, 
0.05911886692047119, 0.07948440313339233, 0.02558861319541388, 1791403240753723883, 
0.032648563385009766, 0.5495200157165527, -0.0002406336516386668, 1791403240783815334, 
-0.06097745895385742, -0.1419418454170227, -0.03819077201454086, 1791403240813877491, 
0.04680204391479492, -0.5754181146621704, -0.00022220177755246826, 1791403240843938977, 
0.11486375331878662, 0.3577592372894287, 0.03696334600889382, 1791403240874050334, 
-0.05334347486495972, 0.32607078552246094, -0.002952930909889757, 1791403240904985394, 
-0.15059620141983032, -0.6599375009536743, -0.02696274616447794, 1791403240937497728, 
0.008995532989501953, -0.22655344009399414, 0.009932903919721752, 1791403240964079844, 
-0.02609473466873169, 0.6277604699134827, 0.007321933560313024, 1791403240994146220, 
-0.22639650106430054, 0.06859326362609863, -0.03161106153482951, 1791403241024235716, 
-0.06038403511047363, -0.5349432826042175, -0.020754261787938242, 1791403241053222342, 
0.4239095449447632, 0.09258025884628296, 0.03125931736209993, 1791403241084239612, 
0.06030935049057007, 0.5196294188499451, 0.0008079692611652494, 1791403241114353310, 
0.009623229503631592, -0.3325243592262268, -0.03890617190537026, 1791403241144953648, 
0.09300124645233154, -0.423159122467041, -0.00638412795550954, 1791403241177024469, 
0.06738901138305664, 0.5101403594017029, 0.03318173013141685, 1791403241204511986, 
-0.003999292850494385, 0.2814512252807617, -0.01931075354063418, 1791403241235144105, 
-0.2137412428855896, -0.5320495367050171, -0.04717759022012925, 1791403241264606671, 
-0.13501042127609253, -0.1896316409111023, 0.016352443622375996, 1791403241294704964, 
0.05111020803451538, 0.583141028881073, 0.05472082353686452, 1791403241324658167, 
0.03623831272125244, 0.07847023010253906, -0.018628954356756242, 1791403241353822645, 
-0.14045464992523193, -0.5338602066040039, -0.026728732721917683, 1791403241385704904, 
0.1559104323387146, -0.05095916986465454, 0.04037876183188821, 1791403241417191829, 
0.07181602716445923, 0.5703806281089783, 0.02274963135671226, 1791403241444854492, 
-0.07407891750335693, 0.02485525608062744, -0.039574876827528874, 1791403241475496868, 
-0.19900119304656982, -0.5759673118591309, -0.023184982032582374, 1791403241505536719, 
-0.12238520383834839, 0.09233337640762329, 0.04166368161027189, 1791403241535565661, 
-0.008717477321624756, 0.45636630058288574, 0.026870357808230355, 1791403241565762685, 
-0.042119503021240234, -0.17513877153396606, -0.04775662224611045, 1791403241595833166, 
-0.1485714316368103, -0.5004250407218933, -0.013178040214523007, 1791403241625655422, 
0.2844897508621216, 0.2870287299156189, 0.045884783738433924, 1791403241656994346, 
0.09583008289337158, 0.5531522631645203, -0.006686095789463314, 1791403241688137386, 
0.08404457569122314, -0.3614283800125122, -0.054326513186126954, 1791403241715623839, 
-0.11774605512619019, -0.5206753611564636, 0.0003103580246119487, 1791403241745608830, 
-0.07852911949157715, 0.5504283905029297, 0.04288957516510852, 1791403241775627365, 
-0.11397254467010498, 0.35266703367233276, -0.016311263018126864, 1791403241805675348, 
-0.05333644151687622, -0.650191605091095, -0.04615316946021691, 1791403241835703202, 
0.17260253429412842, -0.16541093587875366, 0.016716424422551602, 1791403241864839690, 
-0.04696977138519287, 0.7283567786216736, 0.03663162876830079, 1791403241897345426, 
-0.01088804006576538, -0.003399193286895752, -0.00835334771109091, 1791403241929317658, 
-0.2770877480506897, -0.6652383804321289, -0.02978248187367155, 1791403241955905548, 
0.3633846640586853, 0.08601349592208862, 0.023598775880398187, 1791403241985892960, 
-0.27695149183273315, 0.5793651342391968, 0.03121839947756031, 1791403242009180990, 
-0.010095715522766113, -0.22759872674942017, -0.00990213622721562, 1791403242045871157, 
-0.11020231246948242, -0.5624474287033081, -0.039000976009442065, 1791403242075928420, 
0.27077406644821167, 0.4646971821784973, 0.011974586860855257, 1791403242105959481, 
0.06991279125213623, 0.31480056047439575, 0.01865749281289486, 1791403242136899887, 
0.014193475246429443, -0.5600370168685913, -0.027307924725271573, 1791403242169080949, 
-0.1516484022140503, -0.341044545173645, -0.00340342313199457, 1791403242196149245, 
0.06527650356292725, 0.7217996716499329, 0.022931871344412554, 1791403242226142167, 
0.04728281497955322, 0.08746367692947388, -0.000593605232487185, 1791403242256178786, 
0.01747065782546997, -0.615017294883728, -0.020742238955133566, 1791403242286238866, 
-0.06295979022979736, -0.1043652892112732, 0.01458635107346316, 1791403242316341385, 
-0.0565912127494812, 0.7123427391052246, 0.020832528304954124, 1791403242346360001, 
0.011503458023071289, 0.028934121131896973, -0.014455657544283356, 1791403242376982043, 
-0.09559214115142822, -0.6180333495140076, -0.009725133498641996, 1791403242409370762, 
-0.1125791072845459, 0.33411288261413574, 0.02749025562523653, 1791403242436707578, 
0.06590491533279419, 0.4484784007072449, 0.00900202258270442, 1791403242466664426, 
0.24702578783035278, -0.364083468914032, -0.023505509796726883, 1791403242496529900, 
0.07430726289749146, -0.4230993986129761, -0.002173077491732257, 1791403242526632701, 
0.09016108512878418, 0.45124655961990356, 0.02766640940453379, 1791403242556674363, 
-0.2655419111251831, 0.3205767273902893, -0.005894843351442434, 1791403242586735748, 
-0.17202508449554443, -0.521755576133728, -0.03133076063171367, 1791403242616947373, 
-0.13069146871566772, -0.26450979709625244, -0.007761793326901721, 1791403242649168001, 
0.1439254879951477, 0.6369796991348267, 0.011981976494850251, 1791403242676913780, 
-0.20725643634796143, 0.23281145095825195, 0.003529992744193086, 1791403242706912955, 
0.07679402828216553, -0.5629916191101074, -0.004297353103028735, 1791403242736979804, 
-0.44644051790237427, -0.3143085837364197, 0.015136194016090756, 1791403242759085820, 
0.2618439197540283, 0.4880279302597046, 0.008553184099602415, 1791403242797055317, 
-0.4028927683830261, 0.005178332328796387, -0.03425833062852636, 1791403242827128542, 
0.1843746304512024, -0.43589580059051514, 0.000986198811862338, 1791403242857452008, 
0.0355525016784668, 0.18079620599746704, 0.03162741212056756, 1791403242889298076, 
0.2822425961494446, 0.36125892400741577, 0.0011588251802737938, 1791403242919698935, 
-0.04931032657623291, -0.29305118322372437, -0.025440710034708325, 1791403242947307742, 
-0.004570066928863525, -0.3540130853652954, 0.01565976252477965, 1791403242977333151, 
-0.08104175329208374, 0.49019068479537964, 0.0290532758870418, 1791403243007418783, 
-0.040627479553222656, 0.2126014232635498, -0.027981278123784634, 1791403243037465162, 
-0.11387437582015991, -0.5724964141845703, -0.04206037641643484, 1791403243067544251, 
0.19446402788162231, -0.1751399040222168, 0.02571875015910581, 1791403243097592637, 
0.08483368158340454, 0.7920379042625427, 0.03598126775157972, 1791403243129002869, 
-0.11904728412628174, 0.021972060203552246, -0.023941349492276904, 1791403243160983533, 
-0.14600861072540283, -0.5090698003768921, -0.02074264686418812, 1791403243197733192, 
0.05273717641830444, 0.47642892599105835, 0.04448596402866241, 1791403243226801464, 
-0.32292819023132324, 0.3673279285430908, -0.013213581489562694, 1791403243257829784, 
-0.02021712064743042, -0.6381417512893677, -0.050765500880858155, 1791403243289028216, 
0.10718363523483276, -0.30727308988571167, 0.017145101980552642, 1791403243321424883, 
0.31079578399658203, 0.8209848999977112, 0.0564229030482282, 1791403243348011064, 
-0.0859605073928833, 0.17485547065734863, -0.019014688226435913, 1791403243377966396, 
-0.3130072355270386, -0.7267804145812988, -0.05246401043768775, 1791403243408065287, 
-0.04454052448272705, -0.21384185552597046, 0.01956129954207111, 1791403243438096326, 
-0.0860547423362732, 0.7895258665084839, 0.032243834780766124, 1791403243468185808, 
-0.10658454895019531, 0.029725193977355957, -0.03377436379074129, 1791403243498232929, 
-0.17289316654205322, -0.6553244590759277, -0.030575654729287985, 1791403243529024958, 
0.3746824264526367, 0.015088081359863281, 0.04025266597478589, 1791403243561436779, 
0.1345500946044922, 0.825377345085144, 0.01900264348187339, 1791403243588454355, 
0.10579472780227661, -0.17806100845336914, -0.05415115462822537, 1791403243618420327, 
-0.36541998386383057, -0.6986848711967468, -0.007605784865326883, 1791403243648524199, 
0.0688137412071228, 0.5063965916633606, 0.0384924853103757, 1791403243678522188, 
-0.06098228693008423, 0.44301486015319824, 0.009002935585096147, 1791403243708606887, 
0.25007569789886475, -0.6066761612892151, -0.02302166492440268, 1791403243738649319, 
0.07381510734558105, -0.3312743902206421, 0.003777829407209479, 1791403243769323709, 
0.15517300367355347, 0.7856786251068115, 0.017199910394803192, 1791403243800961988, 
-0.10557574033737183, 0.20193123817443848, -0.01582548244132899, 1791403243827868916, 
-0.12978869676589966, -0.8018233180046082, -0.023806465271938873, 1791403243857859733, 
-0.13706302642822266, -0.19760054349899292, 0.024825118922571936, 1791403243889001285, 
0.3796897530555725, 0.8340781331062317, 0.02150494103208012, 1791403243918992401, 
0.08695781230926514, -0.2023627758026123, -0.024268023582257024, 1791403243949225790, 
-0.02226048707962036, -0.5827013850212097, -0.014569046302417565, 1791403243979167048, 
0.13154834508895874, 0.3709530830383301, 0.030249344750138435, 1791403244009443648, 
-0.05140107870101929, 0.5452249050140381, -0.006134616466028701, 1791403244041017673, 
-0.14217865467071533, -0.4994717240333557, -0.05306054238030925, 1791403244069262519, 
-0.07261860370635986, -0.41859298944473267, -0.01121000005465833, 1791403244099226644, 
0.0392376184463501, 0.7499414086341858, 0.023399630410119623, 1791403244129283030, 
0.0061171650886535645, 0.4161844253540039, -0.0003337439224920047, 1791403244150346913, 
0.13355213403701782, -0.7637143731117249, -0.019319323563218315, 1791403244188388286, 
0.03387206792831421, -0.11024230718612671, 0.0108734151130972, 1791403244219426731, 
-0.07022345066070557, 0.6953567862510681, 0.022893493951232496, 1791403244249508362, 
-0.28377121686935425, 0.08378720283508301, -0.01730066100856811, 1791403244281159079, 
-0.19184958934783936, -0.590355634689331, -0.018898293601248457, 1791403244311541161, 
0.30785369873046875, 0.10338222980499268, 0.01902862464990921, 1791403244339599624, 
0.10933446884155273, 0.4725766181945801, 0.003454438619816397, 1791403244369641461, 
-0.47863346338272095, 0.21965980529785156, -0.023698368210050107, 1791403244392497224, 
-0.026867806911468506, -0.5719521045684814, -0.009254928863014813, 1791403244419738408, 
0.08664041757583618, -0.04335212707519531, 0.03516323220669038, 1791403244448797643, 
-0.04575282335281372, 0.5591903924942017, 0.007775517059944228, 1791403244479844516, 
0.07897931337356567, -0.07896238565444946, -0.027450685060792682, 1791403244509885249, 
0.08501929044723511, -0.552555501461029, -0.0035807259317876742, 1791403244539909680, 
0.1252637505531311, 0.2692376971244812, 0.02189200675481423, 1791403244570138742, 
-0.2179843783378601, 0.5159784555435181, -0.019301857125867156, 1791403244601075037, 
-0.24724185466766357, -0.37994569540023804, -0.038910314773188265, 1791403244633320447, 
-0.06083691120147705, -0.4009903073310852, 0.014362912809224512, 1791403244660156376, 
0.3320976495742798, 0.49133366346359253, 0.03565588165690252, 1791403244690173531, 
0.10338592529296875, 0.28719574213027954, -0.02761765681988439, 1791403244720250588, 
-0.14896529912948608, -0.5442241430282593, -0.031913397987241986, 1791403244750258024, 
-0.05129927396774292, -0.23600947856903076, 0.03403428624538944, 1791403244780304650, 
0.016627132892608643, 0.6254391074180603, 0.03063240622350096, 1791403244810375461, 
-0.06899458169937134, 0.13206452131271362, -0.036713138579455316, 1791403244841526727, 
-0.019858181476593018, -0.6149337291717529, -0.030707108490116056, 1791403244873373630, 
-0.011716783046722412, 0.009187638759613037, 0.025477925149754478, 1791403244900618320, 
0.16945862770080566, 0.5391016602516174, 0.025113579723888297, 1791403244930612856, 
-0.04800373315811157, -0.02617090940475464, -0.030085433150842212, 1791403244960635972, 
-0.28132331371307373, -0.589163064956665, -0.013271475829594091, 1791403244990692344, 
0.1625807285308838, 0.12018680572509766, 0.03936828891734452, 1791403245020722702, 
0.0977637767791748, 0.475827693939209, 0.003950757628748881, 1791403245049809207, 
0.10864990949630737, -0.13232934474945068, -0.0381827210279902, 1791403245081108300, 
0.3263894319534302, -0.5233998894691467, 0.001248858179917205, 1791403245113705201, 
-0.010368525981903076, 0.572135329246521, 0.042131515641302346, 1791403245150957532, 
-0.01476830244064331, 0.017691731452941895, -0.014767005432279878, 1791403245180962634, 
-0.4801819324493408, -0.4976469874382019, -0.023485173909518625, 1791403245211051204, 
0.2248273491859436, -0.07424789667129517, 0.02848818376569296, 1791403245241319634, 
0.06195765733718872, 0.5212670564651489, 0.01920786287307735, 1791403245273221357, 
-0.37939298152923584, 0.07229185104370117, -0.033822299968342996, 1791403245301187207, 
-0.10938519239425659, -0.5417082905769348, -0.01824917244159713, 1791403245331240678, 
0.31737542152404785, 0.08082300424575806, 0.02901790277481721, 1791403245361397639, 
0.28245192766189575, 0.5201403498649597, 0.0006593336303456738, 1791403245391372087, 
-0.132216215133667, -0.2080516219139099, -0.038435102404323976, 1791403245420427920, 
-0.3577919602394104, -0.5239406824111938, -0.004156906865816365, 1791403245451493829, 
0.009084045886993408, 0.547332227230072, 0.0209960017635271, 1791403245481691030, 
-0.26555925607681274, 0.12112444639205933, -0.01953296069344224, 1791403245513318457, 
-0.21867406368255615, -0.5919838547706604, -0.02976093440054159, 1791403245543550649, 
0.1487225890159607, 0.049989283084869385, 0.022163895876354277, 1791403245571747989, 
0.24286115169525146, 0.612766683101654, 0.01891406880752701, 1791403245601675004, 
-0.02672290802001953, -0.1624925136566162, -0.03749601095484031, 1791403245631757480, 
-0.10504013299942017, -0.5800033211708069, -0.014685365580200954, 1791403245660791991, 
-0.18257957696914673, 0.3830811381340027, 0.031772705741473894, 1791403245691833609, 
-0.1075354814529419, 0.4555512070655823, 0.0033323268226379365, 1791403245721875299, 
-0.06455779075622559, -0.42853862047195435, -0.035979255800335785, 1791403245753316366, 
0.09807294607162476, -0.4258613586425781, 0.008080058517859508, 1791403245784700103, 
0.02075505256652832, 0.6039903163909912, 0.04179953051180992, 1791403245812096913, 
-0.20847868919372559, 0.27402299642562866, -0.015126320426774656, 1791403245842039437, 
-0.11068332195281982, -0.5540568828582764, -0.030765854197923385, 1791403245872108150, 
-0.029456496238708496, -0.22035425901412964, 0.027523403159341868, 1791403245902162529, 
-0.03414583206176758, 0.4974061846733093, 0.020084415364048255, 1791403245932189346, 
-0.24093657732009888, 0.12420022487640381, -0.02579503928692452, 1791403245962281158, 
0.1481596827507019, -0.4888527989387512, -0.012884153322534602, 1791403245994091675, 
0.25030797719955444, 0.0017536282539367676, 0.017584639736742562, 1791403246025169741, 
0.09683781862258911, 0.48375362157821655, -0.0032014339635537013, 1791403246052466163, 
-0.11604493856430054, -0.19150447845458984, -0.040348342831713555, 1791403246081462556, 
-0.32942068576812744, -0.42424386739730835, 0.005947138016233789, 1791403246112505693, 
0.2082241177558899, 0.30997931957244873, 0.03896124279926596, 1791403246142565477, 
0.05585759878158569, 0.34763604402542114, -0.020615527995170736, 1791403246171795986, 
0.08629035949707031, -0.33889585733413696, -0.034459244156688475, 1791403246202648527, 
0.09050500392913818, -0.35614973306655884, 0.029675414808834864, 1791403246233708144, 
-0.11891603469848633, 0.5043278336524963, 0.03578184458998551, 1791403246265262696, 
-0.19437098503112793, 0.17833852767944336, -0.044225286249777, 1791403246292824130, 
-0.2749990224838257, -0.5876785516738892, -0.03908923944782433, 1791403246322864978, 
0.3270552158355713, -0.09210574626922607, 0.03388457165481288, 1791403246352879969, 
0.066153883934021, 0.6544674634933472, 0.031671013485788393, 1791403246383013346, 
-0.008521795272827148, -0.10196566581726074, -0.032640729926209595, 1791403246412997175, 
-0.11799794435501099, -0.5820419192314148, -0.023725982307266837, 1791403246443062205, 
0.06826114654541016, 0.11484122276306152, 0.045025570087273946, 1791403246473312578, 
-0.1027725338935852, 0.6182422637939453, 0.028968907403696707, 1791403246505702907, 
-0.05973142385482788, -0.11467278003692627, -0.04029197919276836, 1791403246535244489, 
-0.014442086219787598, -0.5984039306640625, -0.05005306561585063, 1791403246563264378, 
0.30218732357025146, 0.23468589782714844, 0.019731637984672003, 1791403246593303094, 
0.07307356595993042, 0.5499729514122009, 0.010561564516197629, 1791403246623359180, 
-0.03475886583328247, -0.21907198429107666, -0.04459716402863679, 1791403246653394836, 
-0.1598568558692932, -0.5085889101028442, -0.0054939667720366155, 1791403246683702246, 
-0.06549447774887085, 0.3104737401008606, 0.05087874960008087, 1791403246712478400, 
0.25689733028411865, 0.27994924783706665, 0.005922462687084132, 1791403246745273734, 
-0.1338813304901123, -0.2622267007827759, -0.029560207603695095, 1791403246776399365, 
0.2236332893371582, -0.29493021965026855, 0.013337795018770988, 1791403246803694449, 
-0.3477550745010376, 0.33610326051712036, 0.029231665988531323, 1791403246833646215, 
-0.19192999601364136, 0.12316763401031494, -0.019588743144596014, 1791403246862774820, 
-0.3778949975967407, -0.42814117670059204, -0.021311058037232156, 1791403246893765654, 
-0.029434382915496826, -0.062140047550201416, 0.022544767090997682, 1791403246923841978, 
0.29024046659469604, 0.5093662142753601, 0.019286425790672017, 1791403246954034201, 
0.1770349144935608, 0.030385076999664307, -0.023331641669592215, 1791403246985293138, 
-0.24244731664657593, -0.5502908229827881, -0.008170196797665303, 1791403247017926762, 
0.3916235566139221, 0.3637514114379883, 0.03627215902141392, 1791403247044184798, 
-0.21428292989730835, 0.28473830223083496, 0.00098938426488922, 1791403247074136470, 
-0.2150748372077942, -0.39540404081344604, -0.03071273828721006, 1791403247104127777, 
-0.30304694175720215, -0.25781601667404175, -0.00853087788887677, 1791403247134176034, 
0.10682713985443115, 0.5264807343482971, 0.01243190931628964, 1791403247164319350, 
-0.087959885597229, 0.1956576704978943, -0.007980418996113672, 1791403247194302163, 
-0.10932767391204834, -0.5264695882797241, -0.015477292051943727, 1791403247225559576, 
0.10578674077987671, -0.09209400415420532, 0.026780709448910065, 1791403247257598869, 
-0.06667286157608032, 0.6005768775939941, 0.031096576880671575, 1791403247284512983, 
-0.15963101387023926, 0.02872931957244873, -0.01937380317376778, 1791403247314471392, 
-0.04694199562072754, -0.6219037175178528, -0.010633438142813386, 1791403247343515079, 
0.001734614372253418, 0.12744534015655518, 0.01733658174063713, 1791403247374638053, 
0.14488542079925537, 0.5377233028411865, 0.01447890834963132, 1791403247403824252, 
0.08800065517425537, -0.15122514963150024, -0.011021094106270666, 1791403247434734160, 
0.10832756757736206, -0.524970293045044, -0.002269926994918025, 1791403247465932633, 
